"rt","key_press","immOpt","delOpt","delay","task","randomize","trial_type","trial_index","time_elapsed","internal_node_id","choice","timelineType"
"1345","81","-1.67","-5.00","20","loss","0","html-keyboard-response","20","18540","0.0-3.0-0.0","immediate","trial"
"1762","81","-0.03","-5.00","50","loss","0","html-keyboard-response","23","22145","0.0-3.0-0.1","immediate","trial"
"2422","81","-0.45","-5.00","20","loss","0","html-keyboard-response","26","26436","0.0-3.0-0.2","immediate","trial"
"1716","80","1.25","5.00","3","reward","0","html-keyboard-response","29","30009","0.0-3.0-0.3","delayed","trial"
"1701","80","0.17","1.00","5","reward","1","html-keyboard-response","32","33574","0.0-3.0-0.4","immediate","trial"
"2097","80","-6.67","-10.00","1","loss","1","html-keyboard-response","35","37530","0.0-3.0-0.5","immediate","trial"
"1870","80","9.90","10.00","1","reward","1","html-keyboard-response","38","41254","0.0-3.0-0.6","immediate","trial"
"2923","81","3.33","20.00","5","reward","1","html-keyboard-response","41","46027","0.0-3.0-0.7","delayed","trial"
"1784","81","9.52","10.00","5","reward","0","html-keyboard-response","44","49657","0.0-3.0-0.8","immediate","trial"
"2716","81","-1.67","-10.00","5","loss","0","html-keyboard-response","47","54219","0.0-3.0-0.9","immediate","trial"
"2044","81","-0.24","-5.00","20","loss","0","html-keyboard-response","50","58106","0.0-3.0-0.10","immediate","trial"
"1849","80","-0.31","-5.00","5","loss","1","html-keyboard-response","53","61812","0.0-3.0-0.11","immediate","trial"
"1908","81","18.18","20.00","10","reward","0","html-keyboard-response","56","65579","0.0-3.0-0.12","immediate","trial"
"3174","80","-10.00","-20.00","2","loss","1","html-keyboard-response","59","70607","0.0-3.0-0.13","immediate","trial"
"2670","80","1.67","10.00","50","reward","0","html-keyboard-response","62","75123","0.0-3.0-0.14","delayed","trial"
"2745","81","0.05","1.00","20","reward","0","html-keyboard-response","65","79729","0.0-3.0-0.15","immediate","trial"
"2483","81","1.43","5.00","5","reward","1","html-keyboard-response","68","84055","0.0-3.0-0.16","delayed","trial"
"1732","80","-4.17","-5.00","20","loss","0","html-keyboard-response","71","87634","0.0-3.0-0.17","delayed","trial"
"1850","80","0.03","5.00","50","reward","0","html-keyboard-response","74","91343","0.0-3.0-0.18","delayed","trial"
"2426","80","2.63","5.00","3","reward","1","html-keyboard-response","77","95629","0.0-3.0-0.19","immediate","trial"
"2030","80","-5.00","-10.00","2","loss","1","html-keyboard-response","80","99523","0.0-3.0-0.20","immediate","trial"
"3381","80","-0.06","-1.00","5","loss","1","html-keyboard-response","83","104762","0.0-3.0-0.21","immediate","trial"
"1100","81","-0.45","-5.00","10","loss","0","html-keyboard-response","86","107712","0.0-3.0-0.22","immediate","trial"
"1621","80","0.40","1.00","3","reward","1","html-keyboard-response","89","111183","0.0-3.0-0.23","immediate","trial"
"1386","80","4.55","5.00","1","reward","0","html-keyboard-response","92","114429","0.0-3.0-0.24","delayed","trial"
"2468","80","0.67","1.00","1","reward","1","html-keyboard-response","95","118750","0.0-3.0-0.25","immediate","trial"
"2627","81","8.00","20.00","3","reward","1","html-keyboard-response","98","123230","0.0-3.0-0.26","delayed","trial"
"996","80","-0.17","-1.00","5","loss","1","html-keyboard-response","101","126077","0.0-3.0-0.27","immediate","trial"
"3827","81","0.02","1.00","50","reward","0","html-keyboard-response","104","131749","0.0-3.0-0.28","immediate","trial"
"2095","80","0.16","5.00","10","reward","0","html-keyboard-response","107","135692","0.0-3.0-0.29","delayed","trial"
"1576","80","-0.13","-20.00","50","loss","1","html-keyboard-response","110","139129","0.0-3.0-0.30","immediate","trial"
"3600","80","-3.33","-20.00","5","loss","1","html-keyboard-response","113","144572","0.0-3.0-0.31","immediate","trial"
"3717","81","0.01","1.00","50","reward","1","html-keyboard-response","116","150139","0.0-3.0-0.32","delayed","trial"
"3357","81","-0.50","-1.00","2","loss","0","html-keyboard-response","119","155338","0.0-3.0-0.33","immediate","trial"
"2866","80","5.26","10.00","3","reward","0","html-keyboard-response","122","160059","0.0-3.0-0.34","delayed","trial"
"3483","81","2.50","5.00","10","reward","1","html-keyboard-response","125","165393","0.0-3.0-0.35","delayed","trial"
"1608","81","-0.39","-20.00","50","loss","0","html-keyboard-response","128","168860","0.0-3.0-0.36","immediate","trial"
"1657","81","-4.17","-5.00","2","loss","0","html-keyboard-response","131","172369","0.0-3.0-0.37","immediate","trial"
"1850","81","0.10","1.00","3","reward","1","html-keyboard-response","134","176082","0.0-3.0-0.38","delayed","trial"
"1395","80","10.00","20.00","1","reward","0","html-keyboard-response","137","179337","0.0-3.0-0.39","delayed","trial"
"2322","80","0.25","1.00","10","reward","0","html-keyboard-response","140","183515","0.0-3.0-0.40","delayed","trial"
"2953","81","0.09","1.00","20","reward","0","html-keyboard-response","143","188325","0.0-3.0-0.41","immediate","trial"
"1482","80","-3.33","-10.00","20","loss","1","html-keyboard-response","146","191664","0.0-3.0-0.42","immediate","trial"
"2320","80","3.85","5.00","3","reward","0","html-keyboard-response","149","195842","0.0-3.0-0.43","delayed","trial"
"1130","80","4.00","10.00","3","reward","0","html-keyboard-response","152","198833","0.0-3.0-0.44","delayed","trial"
"2392","81","-0.40","-1.00","3","loss","0","html-keyboard-response","155","203073","0.0-3.0-0.45","immediate","trial"
"1310","81","-1.25","-5.00","3","loss","0","html-keyboard-response","158","206232","0.0-3.0-0.46","immediate","trial"
"1582","81","4.90","5.00","2","reward","1","html-keyboard-response","161","209662","0.0-3.0-0.47","delayed","trial"
"2695","81","-0.95","-20.00","20","loss","0","html-keyboard-response","164","214217","0.0-3.0-0.48","immediate","trial"
"4218","81","-5.00","-10.00","1","loss","0","html-keyboard-response","167","220274","0.0-3.0-0.49","immediate","trial"
"1427","80","3.33","10.00","20","reward","0","html-keyboard-response","170","223551","0.0-3.0-0.50","delayed","trial"
"985","80","2.86","20.00","2","reward","0","html-keyboard-response","173","226395","0.0-3.0-0.51","delayed","trial"
"951","81","-5.26","-10.00","3","loss","0","html-keyboard-response","176","229202","0.0-3.0-0.52","immediate","trial"
"1351","80","-0.67","-1.00","1","loss","1","html-keyboard-response","179","232412","0.0-3.0-0.53","immediate","trial"
"1427","81","-0.50","-5.00","3","loss","0","html-keyboard-response","182","235686","0.0-3.0-0.54","immediate","trial"
"1610","80","4.76","5.00","5","reward","0","html-keyboard-response","185","239150","0.0-3.0-0.55","delayed","trial"
"1283","80","16.67","20.00","2","reward","1","html-keyboard-response","188","242284","0.0-3.0-0.56","immediate","trial"
"1507","80","-0.91","-1.00","1","loss","1","html-keyboard-response","191","245648","0.0-3.0-0.57","immediate","trial"
"2069","80","-4.76","-5.00","5","loss","1","html-keyboard-response","194","249569","0.0-3.0-0.58","immediate","trial"
"1402","81","0.67","1.00","50","reward","0","html-keyboard-response","197","252833","0.0-3.0-0.59","immediate","trial"
"2242","80","-0.16","-5.00","10","loss","1","html-keyboard-response","200","256934","0.0-3.0-0.60","immediate","trial"
"2173","81","3.33","20.00","10","reward","0","html-keyboard-response","203","260964","0.0-3.0-0.61","immediate","trial"
"2885","81","-1.43","-10.00","20","loss","0","html-keyboard-response","206","265706","0.0-3.0-0.62","immediate","trial"
"2552","80","-6.67","-10.00","50","loss","1","html-keyboard-response","209","270103","0.0-3.0-0.63","immediate","trial"
"963","80","0.63","10.00","50","reward","0","html-keyboard-response","212","272923","0.0-3.0-0.64","delayed","trial"
"1613","80","-5.00","-10.00","10","loss","1","html-keyboard-response","215","276394","0.0-3.0-0.65","immediate","trial"
"2459","80","-0.32","-10.00","10","loss","1","html-keyboard-response","218","280698","0.0-3.0-0.66","immediate","trial"
"1997","81","-10.00","-20.00","10","loss","0","html-keyboard-response","221","284546","0.0-3.0-0.67","immediate","trial"
"2749","80","10.00","20.00","10","reward","0","html-keyboard-response","224","289150","0.0-3.0-0.68","delayed","trial"
"3345","80","13.33","20.00","5","reward","0","html-keyboard-response","227","294346","0.0-3.0-0.69","delayed","trial"
"3782","81","6.67","10.00","1","reward","1","html-keyboard-response","230","299981","0.0-3.0-0.70","delayed","trial"
"1135","80","0.17","1.00","10","reward","1","html-keyboard-response","233","302976","0.0-3.0-0.71","immediate","trial"
"1310","80","1.67","5.00","2","reward","0","html-keyboard-response","236","306141","0.0-3.0-0.72","delayed","trial"
"3101","80","-1.43","-10.00","2","loss","1","html-keyboard-response","239","311101","0.0-3.0-0.73","immediate","trial"
"2002","81","1.25","5.00","1","reward","1","html-keyboard-response","242","314961","0.0-3.0-0.74","delayed","trial"
"3975","80","0.53","1.00","3","reward","1","html-keyboard-response","245","320796","0.0-3.0-0.75","immediate","trial"
"922","81","-2.50","-10.00","1","loss","0","html-keyboard-response","248","323558","0.0-3.0-0.76","immediate","trial"
"1337","81","0.24","5.00","20","reward","1","html-keyboard-response","251","326758","0.0-3.0-0.77","delayed","trial"
"1521","81","-3.33","-5.00","50","loss","0","html-keyboard-response","254","330120","0.0-3.0-0.78","immediate","trial"
"3677","80","-2.86","-10.00","5","loss","1","html-keyboard-response","257","335657","0.0-3.0-0.79","immediate","trial"
"1450","80","-0.71","-5.00","2","loss","1","html-keyboard-response","260","338950","0.0-3.0-0.80","immediate","trial"
"2191","81","-0.67","-1.00","50","loss","1","html-keyboard-response","263","342992","0.0-3.0-0.81","delayed","trial"
"2207","81","0.31","5.00","50","reward","1","html-keyboard-response","266","347056","0.0-3.0-0.82","delayed","trial"
"2383","81","-0.03","-1.00","10","loss","0","html-keyboard-response","269","351313","0.0-3.0-0.83","immediate","trial"
"1027","80","-0.33","-20.00","20","loss","1","html-keyboard-response","272","354186","0.0-3.0-0.84","immediate","trial"
"2561","81","0.32","10.00","10","reward","1","html-keyboard-response","275","358601","0.0-3.0-0.85","delayed","trial"
"983","81","-5.00","-20.00","1","loss","0","html-keyboard-response","278","361442","0.0-3.0-0.86","immediate","trial"
"1600","80","2.50","5.00","2","reward","0","html-keyboard-response","281","364896","0.0-3.0-0.87","delayed","trial"
"2281","80","0.17","1.00","50","reward","1","html-keyboard-response","284","369020","0.0-3.0-0.88","immediate","trial"
"1545","81","0.95","20.00","20","reward","1","html-keyboard-response","287","372424","0.0-3.0-0.89","delayed","trial"
"1414","81","4.17","5.00","2","reward","1","html-keyboard-response","290","375693","0.0-3.0-0.90","delayed","trial"
"1265","80","-0.91","-10.00","10","loss","1","html-keyboard-response","293","378814","0.0-3.0-0.91","immediate","trial"
"1121","81","5.00","10.00","1","reward","1","html-keyboard-response","296","381790","0.0-3.0-0.92","delayed","trial"
"1193","80","-1.43","-5.00","5","loss","1","html-keyboard-response","299","384842","0.0-3.0-0.93","immediate","trial"
"835","81","5.00","20.00","10","reward","1","html-keyboard-response","302","387525","0.0-3.0-0.94","delayed","trial"
"2361","81","2.50","10.00","3","reward","1","html-keyboard-response","305","391751","0.0-3.0-0.95","delayed","trial"
"836","80","-0.06","-1.00","50","loss","1","html-keyboard-response","308","394446","0.0-3.0-0.96","immediate","trial"
"1092","80","-0.29","-1.00","5","loss","1","html-keyboard-response","311","397390","0.0-3.0-0.97","immediate","trial"
"1968","80","4.17","5.00","20","reward","0","html-keyboard-response","314","401208","0.0-3.0-0.98","delayed","trial"
"2033","80","0.13","20.00","50","reward","0","html-keyboard-response","317","405111","0.0-3.0-0.99","delayed","trial"
"919","81","-1.25","-20.00","50","loss","0","html-keyboard-response","320","407887","0.0-3.0-0.100","immediate","trial"
"1306","81","-2.86","-20.00","20","loss","0","html-keyboard-response","323","411045","0.0-3.0-0.101","immediate","trial"
"1772","81","-0.97","-1.00","3","loss","1","html-keyboard-response","326","414670","0.0-3.0-0.102","delayed","trial"
"942","80","-6.67","-10.00","5","loss","1","html-keyboard-response","329","417471","0.0-3.0-0.103","immediate","trial"
"2709","80","-9.90","-10.00","1","loss","1","html-keyboard-response","332","422023","0.0-3.0-0.104","immediate","trial"
"2280","81","-0.14","-1.00","2","loss","1","html-keyboard-response","335","426156","0.0-3.0-0.105","delayed","trial"
"1529","80","-4.00","-10.00","3","loss","1","html-keyboard-response","338","429547","0.0-3.0-0.106","immediate","trial"
"3930","81","-0.09","-1.00","10","loss","0","html-keyboard-response","341","435328","0.0-3.0-0.107","immediate","trial"
"1748","81","0.95","1.00","5","reward","0","html-keyboard-response","344","438928","0.0-3.0-0.108","immediate","trial"
"811","80","-0.83","-5.00","10","loss","1","html-keyboard-response","347","441598","0.0-3.0-0.109","immediate","trial"
"1774","81","0.91","1.00","1","reward","0","html-keyboard-response","350","445233","0.0-3.0-0.110","immediate","trial"
"1369","81","-0.16","-10.00","20","loss","0","html-keyboard-response","353","448469","0.0-3.0-0.111","immediate","trial"
"4127","80","-0.48","-10.00","20","loss","1","html-keyboard-response","356","454445","0.0-3.0-0.112","immediate","trial"
"null","null","-0.33","-1.00","2","loss","0","html-keyboard-response","359","461308","0.0-3.0-0.113","","trial"
"1420","80","1.67","10.00","10","reward","0","html-keyboard-response","362","464579","0.0-3.0-0.114","delayed","trial"
"931","81","10.00","20.00","2","reward","1","html-keyboard-response","365","467369","0.0-3.0-0.115","delayed","trial"
"3703","81","-3.33","-20.00","10","loss","0","html-keyboard-response","368","472922","0.0-3.0-0.116","immediate","trial"
"1856","81","-16.67","-20.00","20","loss","0","html-keyboard-response","371","476644","0.0-3.0-0.117","immediate","trial"
"1163","80","2.00","5.00","5","reward","0","html-keyboard-response","374","479661","0.0-3.0-0.118","delayed","trial"
"986","80","0.50","1.00","10","reward","0","html-keyboard-response","377","482495","0.0-3.0-0.119","delayed","trial"
"814","81","-0.38","-10.00","50","loss","0","html-keyboard-response","380","485152","0.0-3.0-0.120","immediate","trial"
"601","80","-0.10","-1.00","3","loss","1","html-keyboard-response","383","487620","0.0-3.0-0.121","immediate","trial"
"1190","80","-0.91","-1.00","10","loss","1","html-keyboard-response","386","490664","0.0-3.0-0.122","immediate","trial"
"1714","80","-0.53","-1.00","3","loss","1","html-keyboard-response","389","494243","0.0-3.0-0.123","immediate","trial"
"1303","80","0.71","5.00","20","reward","0","html-keyboard-response","392","497389","0.0-3.0-0.124","delayed","trial"
"2299","81","12.50","20.00","2","reward","1","html-keyboard-response","395","501548","0.0-3.0-0.125","delayed","trial"
"2996","81","3.13","5.00","2","reward","1","html-keyboard-response","398","506380","0.0-3.0-0.126","delayed","trial"
"1176","81","-0.02","-1.00","50","loss","0","html-keyboard-response","401","509425","0.0-3.0-0.127","immediate","trial"
"1057","81","-3.33","-5.00","1","loss","0","html-keyboard-response","404","512325","0.0-3.0-0.128","immediate","trial"
"1154","81","-0.01","-1.00","50","loss","0","html-keyboard-response","407","515333","0.0-3.0-0.129","immediate","trial"
"2398","81","-18.18","-20.00","10","loss","0","html-keyboard-response","410","519585","0.0-3.0-0.130","immediate","trial"
"2598","80","0.77","1.00","3","reward","1","html-keyboard-response","413","524035","0.0-3.0-0.131","immediate","trial"
"1393","80","0.97","1.00","3","reward","0","html-keyboard-response","416","527270","0.0-3.0-0.132","delayed","trial"
"1545","81","-1.82","-20.00","10","loss","0","html-keyboard-response","419","530664","0.0-3.0-0.133","immediate","trial"
"1000","80","0.38","10.00","50","reward","1","html-keyboard-response","422","533507","0.0-3.0-0.134","immediate","trial"
"2191","81","8.33","10.00","20","reward","1","html-keyboard-response","425","537558","0.0-3.0-0.135","delayed","trial"
"1868","80","-4.55","-5.00","1","loss","1","html-keyboard-response","428","541286","0.0-3.0-0.136","immediate","trial"
"1275","80","-2.50","-5.00","10","loss","1","html-keyboard-response","431","544413","0.0-3.0-0.137","immediate","trial"
"1281","81","0.83","5.00","5","reward","1","html-keyboard-response","434","547549","0.0-3.0-0.138","delayed","trial"
"1079","80","-0.83","-5.00","5","loss","1","html-keyboard-response","437","550477","0.0-3.0-0.139","immediate","trial"
"1596","81","-0.77","-1.00","3","loss","0","html-keyboard-response","440","553923","0.0-3.0-0.140","immediate","trial"
"2275","80","-0.40","-1.00","5","loss","1","html-keyboard-response","443","558053","0.0-3.0-0.141","immediate","trial"
"1388","81","0.14","1.00","2","reward","1","html-keyboard-response","446","561295","0.0-3.0-0.142","delayed","trial"
"854","81","1.82","20.00","20","reward","1","html-keyboard-response","449","563991","0.0-3.0-0.143","delayed","trial"
"2226","80","-0.77","-20.00","50","loss","1","html-keyboard-response","452","568062","0.0-3.0-0.144","immediate","trial"
"1562","81","-0.50","-1.00","10","loss","0","html-keyboard-response","455","571469","0.0-3.0-0.145","immediate","trial"
"1644","81","0.06","1.00","5","reward","1","html-keyboard-response","458","574980","0.0-3.0-0.146","delayed","trial"
"1383","81","-8.33","-10.00","2","loss","0","html-keyboard-response","461","578219","0.0-3.0-0.147","immediate","trial"
"1821","80","-0.95","-1.00","5","loss","1","html-keyboard-response","464","581908","0.0-3.0-0.148","immediate","trial"
"1480","81","0.06","1.00","50","reward","0","html-keyboard-response","467","585238","0.0-3.0-0.149","immediate","trial"
"1826","80","0.04","1.00","50","reward","0","html-keyboard-response","470","588914","0.0-3.0-0.150","delayed","trial"
"1858","81","-0.67","-1.00","5","loss","0","html-keyboard-response","473","592614","0.0-3.0-0.151","immediate","trial"
"1868","81","0.50","1.00","1","reward","1","html-keyboard-response","476","596325","0.0-3.0-0.152","delayed","trial"
"1518","81","0.45","5.00","20","reward","1","html-keyboard-response","479","599694","0.0-3.0-0.153","delayed","trial"
"804","81","-1.82","-20.00","20","loss","0","html-keyboard-response","482","602352","0.0-3.0-0.154","immediate","trial"
"1232","81","5.00","20.00","1","reward","1","html-keyboard-response","485","605429","0.0-3.0-0.155","delayed","trial"
"832","81","6.67","20.00","2","reward","1","html-keyboard-response","488","608120","0.0-3.0-0.156","delayed","trial"
"768","81","7.69","10.00","3","reward","1","html-keyboard-response","491","610754","0.0-3.0-0.157","delayed","trial"
"1729","80","0.99","1.00","1","reward","1","html-keyboard-response","494","614336","0.0-3.0-0.158","immediate","trial"
"1421","81","0.19","5.00","50","reward","1","html-keyboard-response","497","617597","0.0-3.0-0.159","delayed","trial"
"1892","80","0.39","20.00","50","reward","0","html-keyboard-response","500","621359","0.0-3.0-0.160","delayed","trial"
"983","80","-2.00","-5.00","3","loss","1","html-keyboard-response","503","624200","0.0-3.0-0.161","immediate","trial"
"1226","80","-0.08","-5.00","20","loss","1","html-keyboard-response","506","627272","0.0-3.0-0.162","immediate","trial"
"1567","81","1.82","20.00","10","reward","1","html-keyboard-response","509","630684","0.0-3.0-0.163","delayed","trial"
"854","81","-2.86","-20.00","2","loss","0","html-keyboard-response","512","633381","0.0-3.0-0.164","immediate","trial"
"1250","80","-12.50","-20.00","2","loss","1","html-keyboard-response","515","636498","0.0-3.0-0.165","immediate","trial"
"1427","81","0.33","20.00","20","reward","1","html-keyboard-response","518","639783","0.0-3.0-0.166","delayed","trial"
"1215","81","-4.55","-5.00","10","loss","1","html-keyboard-response","521","642860","0.0-3.0-0.167","delayed","trial"
"1665","80","-4.90","-5.00","2","loss","0","html-keyboard-response","524","646381","0.0-3.0-0.168","delayed","trial"
"2661","81","0.33","1.00","20","reward","0","html-keyboard-response","527","650888","0.0-3.0-0.169","immediate","trial"
"1956","80","0.77","1.00","1","reward","0","html-keyboard-response","530","654692","0.0-3.0-0.170","delayed","trial"
"848","81","-8.00","-20.00","5","loss","0","html-keyboard-response","533","657395","0.0-3.0-0.171","immediate","trial"
"1144","81","-13.33","-20.00","50","loss","1","html-keyboard-response","536","660401","0.0-3.0-0.172","delayed","trial"
"1371","80","0.20","10.00","50","reward","0","html-keyboard-response","539","663616","0.0-3.0-0.173","delayed","trial"
"1990","80","-0.17","-1.00","50","loss","0","html-keyboard-response","542","667465","0.0-3.0-0.174","delayed","trial"
"910","81","-8.00","-20.00","3","loss","0","html-keyboard-response","545","670227","0.0-3.0-0.175","immediate","trial"
"1171","81","-0.98","-1.00","2","loss","1","html-keyboard-response","548","673248","0.0-3.0-0.176","delayed","trial"
"1232","81","19.05","20.00","5","reward","1","html-keyboard-response","551","676338","0.0-3.0-0.177","delayed","trial"
"1303","81","1.67","10.00","5","reward","1","html-keyboard-response","554","679490","0.0-3.0-0.178","delayed","trial"
"952","80","-2.00","-5.00","5","loss","1","html-keyboard-response","557","682300","0.0-3.0-0.179","immediate","trial"
"550","81","-0.02","-1.00","20","loss","0","html-keyboard-response","560","684708","0.0-3.0-0.180","immediate","trial"
"1500","81","-0.83","-1.00","20","loss","1","html-keyboard-response","563","688065","0.0-3.0-0.181","delayed","trial"
"773","80","-2.50","-5.00","2","loss","1","html-keyboard-response","566","690699","0.0-3.0-0.182","immediate","trial"
"992","81","3.33","5.00","50","reward","1","html-keyboard-response","569","693538","0.0-3.0-0.183","delayed","trial"
"1201","81","10.53","20.00","3","reward","1","html-keyboard-response","572","696598","0.0-3.0-0.184","delayed","trial"
"2069","81","0.31","5.00","5","reward","1","html-keyboard-response","575","700525","0.0-3.0-0.185","delayed","trial"
"2940","81","0.02","1.00","20","reward","1","html-keyboard-response","578","705316","0.0-3.0-0.186","delayed","trial"
"2004","81","-0.77","-1.00","1","loss","0","html-keyboard-response","581","709160","0.0-3.0-0.187","immediate","trial"
"2736","80","-19.42","-20.00","3","loss","1","html-keyboard-response","584","713752","0.0-3.0-0.188","immediate","trial"
"1716","80","0.08","5.00","20","reward","0","html-keyboard-response","587","717312","0.0-3.0-0.189","delayed","trial"
"875","80","1.25","20.00","5","reward","0","html-keyboard-response","590","720029","0.0-3.0-0.190","delayed","trial"
"879","81","19.42","20.00","3","reward","0","html-keyboard-response","593","722765","0.0-3.0-0.191","immediate","trial"
"884","80","5.00","20.00","3","reward","0","html-keyboard-response","596","725501","0.0-3.0-0.192","delayed","trial"
"1294","81","-0.25","-1.00","3","loss","0","html-keyboard-response","599","728650","0.0-3.0-0.193","immediate","trial"
"998","81","-0.63","-1.00","2","loss","0","html-keyboard-response","602","731503","0.0-3.0-0.194","immediate","trial"
"1159","81","4.55","5.00","10","reward","1","html-keyboard-response","605","734514","0.0-3.0-0.195","delayed","trial"
"2954","80","-15.38","-20.00","1","loss","1","html-keyboard-response","608","739320","0.0-3.0-0.196","immediate","trial"
"2622","80","-9.52","-10.00","5","loss","1","html-keyboard-response","611","743796","0.0-3.0-0.197","immediate","trial"
"1618","81","-0.14","-1.00","20","loss","0","html-keyboard-response","614","747283","0.0-3.0-0.198","immediate","trial"
"2455","80","-9.09","-10.00","10","loss","0","html-keyboard-response","617","751590","0.0-3.0-0.199","delayed","trial"
"776","81","1.43","10.00","20","reward","1","html-keyboard-response","620","754232","0.0-3.0-0.200","delayed","trial"
"1366","81","-0.71","-5.00","20","loss","0","html-keyboard-response","623","757450","0.0-3.0-0.201","immediate","trial"
"750","80","7.69","10.00","1","reward","0","html-keyboard-response","626","760046","0.0-3.0-0.202","delayed","trial"
"1135","81","-0.09","-1.00","20","loss","0","html-keyboard-response","629","763041","0.0-3.0-0.203","immediate","trial"
"1299","80","3.33","10.00","2","reward","1","html-keyboard-response","632","766192","0.0-3.0-0.204","immediate","trial"
"727","81","-0.63","-10.00","50","loss","0","html-keyboard-response","635","768782","0.0-3.0-0.205","immediate","trial"
"693","80","2.50","10.00","1","reward","0","html-keyboard-response","638","771319","0.0-3.0-0.206","delayed","trial"
"1711","81","-9.80","-10.00","2","loss","0","html-keyboard-response","641","774887","0.0-3.0-0.207","immediate","trial"
"1172","80","0.33","1.00","2","reward","1","html-keyboard-response","644","777917","0.0-3.0-0.208","immediate","trial"
"824","80","6.67","10.00","50","reward","0","html-keyboard-response","647","780590","0.0-3.0-0.209","delayed","trial"
"2405","81","0.50","5.00","3","reward","1","html-keyboard-response","650","784851","0.0-3.0-0.210","delayed","trial"
"2763","81","9.80","10.00","2","reward","0","html-keyboard-response","653","789459","0.0-3.0-0.211","immediate","trial"
"1154","80","-0.65","-20.00","10","loss","1","html-keyboard-response","656","792469","0.0-3.0-0.212","immediate","trial"
"1253","80","-0.05","-1.00","20","loss","1","html-keyboard-response","659","795567","0.0-3.0-0.213","immediate","trial"
"1457","80","0.29","1.00","5","reward","0","html-keyboard-response","662","798882","0.0-3.0-0.214","delayed","trial"
"1000","81","6.25","10.00","2","reward","1","html-keyboard-response","665","801734","0.0-3.0-0.215","delayed","trial"
"2256","80","-0.99","-1.00","1","loss","0","html-keyboard-response","668","805840","0.0-3.0-0.216","delayed","trial"
"796","81","-1.67","-10.00","50","loss","0","html-keyboard-response","671","808481","0.0-3.0-0.217","immediate","trial"
"809","80","-6.67","-20.00","20","loss","1","html-keyboard-response","674","811145","0.0-3.0-0.218","immediate","trial"
"709","81","-0.63","-10.00","5","loss","0","html-keyboard-response","677","813725","0.0-3.0-0.219","immediate","trial"
"1347","81","19.80","20.00","1","reward","1","html-keyboard-response","680","816921","0.0-3.0-0.220","delayed","trial"
"957","81","-0.19","-5.00","50","loss","0","html-keyboard-response","683","819731","0.0-3.0-0.221","immediate","trial"
"1621","81","0.83","1.00","20","reward","1","html-keyboard-response","686","823215","0.0-3.0-0.222","delayed","trial"
"973","81","-3.33","-5.00","5","loss","0","html-keyboard-response","689","826039","0.0-3.0-0.223","immediate","trial"
"635","81","-6.67","-20.00","2","loss","0","html-keyboard-response","692","828529","0.0-3.0-0.224","immediate","trial"
"1054","80","-1.25","-5.00","1","loss","1","html-keyboard-response","695","831429","0.0-3.0-0.225","immediate","trial"
"618","81","0.10","5.00","50","reward","0","html-keyboard-response","698","833892","0.0-3.0-0.226","immediate","trial"
"1499","81","0.91","10.00","20","reward","1","html-keyboard-response","701","837251","0.0-3.0-0.227","delayed","trial"
"1434","81","0.98","1.00","2","reward","1","html-keyboard-response","704","840528","0.0-3.0-0.228","delayed","trial"
"2369","80","-18.18","-20.00","1","loss","1","html-keyboard-response","707","844744","0.0-3.0-0.229","immediate","trial"
"1905","80","-0.33","-1.00","20","loss","1","html-keyboard-response","710","848499","0.0-3.0-0.230","immediate","trial"
"882","81","0.83","1.00","2","reward","0","html-keyboard-response","713","851235","0.0-3.0-0.231","immediate","trial"
"859","80","-0.31","-5.00","50","loss","1","html-keyboard-response","716","853964","0.0-3.0-0.232","immediate","trial"
"1012","80","1.25","20.00","50","reward","0","html-keyboard-response","719","856826","0.0-3.0-0.233","delayed","trial"
"698","80","0.77","20.00","50","reward","0","html-keyboard-response","722","859381","0.0-3.0-0.234","delayed","trial"
"2068","80","-0.04","-1.00","50","loss","0","html-keyboard-response","725","863301","0.0-3.0-0.235","delayed","trial"
"2589","80","-9.71","-10.00","3","loss","1","html-keyboard-response","728","867733","0.0-3.0-0.236","immediate","trial"
"1159","80","8.00","20.00","5","reward","0","html-keyboard-response","731","870744","0.0-3.0-0.237","delayed","trial"
"1582","80","0.45","5.00","10","reward","0","html-keyboard-response","734","874175","0.0-3.0-0.238","delayed","trial"
"700","81","5.00","10.00","10","reward","1","html-keyboard-response","737","876745","0.0-3.0-0.239","delayed","trial"
"875","80","3.33","5.00","1","reward","0","html-keyboard-response","740","879481","0.0-3.0-0.240","delayed","trial"
"1860","80","6.67","10.00","5","reward","0","html-keyboard-response","743","883188","0.0-3.0-0.241","delayed","trial"
"796","81","-0.07","-10.00","50","loss","1","html-keyboard-response","746","885840","0.0-3.0-0.242","delayed","trial"
"1460","81","4.95","5.00","1","reward","1","html-keyboard-response","749","889155","0.0-3.0-0.243","delayed","trial"
"1589","80","2.50","5.00","1","reward","0","html-keyboard-response","752","892602","0.0-3.0-0.244","delayed","trial"
"1076","81","5.71","20.00","5","reward","1","html-keyboard-response","755","895520","0.0-3.0-0.245","delayed","trial"
"864","80","-1.00","-10.00","3","loss","1","html-keyboard-response","758","898238","0.0-3.0-0.246","immediate","trial"
"790","81","2.86","10.00","5","reward","1","html-keyboard-response","761","900874","0.0-3.0-0.247","delayed","trial"
"686","80","-6.25","-10.00","2","loss","1","html-keyboard-response","764","903409","0.0-3.0-0.248","immediate","trial"
"1036","81","9.09","10.00","10","reward","1","html-keyboard-response","767","906298","0.0-3.0-0.249","delayed","trial"
"2566","80","-3.85","-5.00","1","loss","1","html-keyboard-response","770","910709","0.0-3.0-0.250","immediate","trial"
"762","80","2.86","20.00","20","reward","0","html-keyboard-response","773","913336","0.0-3.0-0.251","delayed","trial"
"770","80","-0.10","-5.00","50","loss","1","html-keyboard-response","776","915963","0.0-3.0-0.252","immediate","trial"
"941","81","0.83","5.00","50","reward","1","html-keyboard-response","779","918764","0.0-3.0-0.253","delayed","trial"
"834","80","-4.85","-5.00","3","loss","1","html-keyboard-response","782","921447","0.0-3.0-0.254","immediate","trial"
"890","80","1.00","10.00","3","reward","0","html-keyboard-response","785","924193","0.0-3.0-0.255","delayed","trial"
"913","80","-13.33","-20.00","5","loss","1","html-keyboard-response","788","926965","0.0-3.0-0.256","immediate","trial"
"1562","81","0.63","1.00","2","reward","1","html-keyboard-response","791","930386","0.0-3.0-0.257","delayed","trial"
"1149","80","-1.25","-5.00","10","loss","1","html-keyboard-response","794","933392","0.0-3.0-0.258","immediate","trial"
"1946","81","0.03","1.00","10","reward","1","html-keyboard-response","797","937189","0.0-3.0-0.259","delayed","trial"
"881","80","-0.83","-5.00","50","loss","1","html-keyboard-response","800","939924","0.0-3.0-0.260","immediate","trial"
"834","80","0.65","20.00","10","reward","0","html-keyboard-response","803","942618","0.0-3.0-0.261","delayed","trial"
"1144","80","0.50","1.00","2","reward","1","html-keyboard-response","806","945603","0.0-3.0-0.262","immediate","trial"
"866","80","0.16","10.00","20","reward","0","html-keyboard-response","809","948329","0.0-3.0-0.263","delayed","trial"
"689","81","0.48","10.00","20","reward","1","html-keyboard-response","812","950872","0.0-3.0-0.264","delayed","trial"
"771","80","0.91","1.00","10","reward","0","html-keyboard-response","815","953515","0.0-3.0-0.265","delayed","trial"
"676","81","15.38","20.00","3","reward","0","html-keyboard-response","818","956038","0.0-3.0-0.266","immediate","trial"
"1122","81","0.83","5.00","10","reward","0","html-keyboard-response","821","959005","0.0-3.0-0.267","immediate","trial"
"1084","80","-10.53","-20.00","3","loss","1","html-keyboard-response","824","961947","0.0-3.0-0.268","immediate","trial"
"700","80","0.07","10.00","50","reward","0","html-keyboard-response","827","964503","0.0-3.0-0.269","delayed","trial"
"725","81","9.09","10.00","1","reward","1","html-keyboard-response","830","967077","0.0-3.0-0.270","delayed","trial"
"824","80","15.38","20.00","1","reward","0","html-keyboard-response","833","969758","0.0-3.0-0.271","delayed","trial"
"859","81","0.91","10.00","10","reward","1","html-keyboard-response","836","972472","0.0-3.0-0.272","delayed","trial"
"1059","80","9.71","10.00","3","reward","1","html-keyboard-response","839","975391","0.0-3.0-0.273","immediate","trial"
"765","80","3.33","5.00","5","reward","0","html-keyboard-response","842","977999","0.0-3.0-0.274","delayed","trial"
"730","80","-1.25","-20.00","5","loss","1","html-keyboard-response","845","980582","0.0-3.0-0.275","immediate","trial"
"1285","80","-2.50","-10.00","3","loss","1","html-keyboard-response","848","983737","0.0-3.0-0.276","immediate","trial"
"1126","80","3.85","5.00","1","reward","0","html-keyboard-response","851","986719","0.0-3.0-0.277","delayed","trial"
"2276","80","8.33","10.00","2","reward","0","html-keyboard-response","854","990838","0.0-3.0-0.278","delayed","trial"
"1722","81","2.00","5.00","3","reward","1","html-keyboard-response","857","994410","0.0-3.0-0.279","delayed","trial"
"1060","81","18.18","20.00","1","reward","1","html-keyboard-response","860","997333","0.0-3.0-0.280","delayed","trial"
"1235","80","0.67","1.00","5","reward","1","html-keyboard-response","863","1000417","0.0-3.0-0.281","immediate","trial"
"1197","80","-3.13","-5.00","2","loss","1","html-keyboard-response","866","1003460","0.0-3.0-0.282","immediate","trial"
"867","81","16.67","20.00","20","reward","1","html-keyboard-response","869","1006170","0.0-3.0-0.283","delayed","trial"
"591","80","6.67","20.00","20","reward","0","html-keyboard-response","872","1008624","0.0-3.0-0.284","delayed","trial"
"1292","81","19.61","20.00","2","reward","0","html-keyboard-response","875","1011765","0.0-3.0-0.285","immediate","trial"
"1263","80","-2.00","-20.00","3","loss","1","html-keyboard-response","878","1014896","0.0-3.0-0.286","immediate","trial"
"2834","80","-2.50","-10.00","10","loss","1","html-keyboard-response","881","1019597","0.0-3.0-0.287","immediate","trial"
"1854","80","-2.63","-5.00","3","loss","0","html-keyboard-response","884","1023305","0.0-3.0-0.288","delayed","trial"
"1528","80","1.67","5.00","20","reward","1","html-keyboard-response","887","1026691","0.0-3.0-0.289","immediate","trial"
"2012","81","-4.95","-5.00","1","loss","0","html-keyboard-response","890","1030558","0.0-3.0-0.290","immediate","trial"
"1029","81","-0.25","-1.00","1","loss","0","html-keyboard-response","893","1033431","0.0-3.0-0.291","immediate","trial"
"959","81","-5.71","-20.00","5","loss","0","html-keyboard-response","896","1036251","0.0-3.0-0.292","immediate","trial"
"2930","80","0.25","1.00","3","reward","1","html-keyboard-response","899","1041033","0.0-3.0-0.293","immediate","trial"
"1594","81","4.85","5.00","3","reward","1","html-keyboard-response","902","1044496","0.0-3.0-0.294","delayed","trial"
"1239","81","1.43","10.00","2","reward","1","html-keyboard-response","905","1047581","0.0-3.0-0.295","delayed","trial"
"948","81","-10.00","-20.00","1","loss","0","html-keyboard-response","908","1050371","0.0-3.0-0.296","immediate","trial"
"2062","81","0.40","1.00","5","reward","0","html-keyboard-response","911","1054283","0.0-3.0-0.297","immediate","trial"
"1465","80","0.14","1.00","20","reward","0","html-keyboard-response","914","1057598","0.0-3.0-0.298","delayed","trial"
"1406","80","-8.33","-10.00","20","loss","1","html-keyboard-response","917","1060857","0.0-3.0-0.299","immediate","trial"
"1408","80","-5.00","-20.00","10","loss","1","html-keyboard-response","920","1064130","0.0-3.0-0.300","immediate","trial"
"1306","81","4.00","10.00","5","reward","1","html-keyboard-response","923","1067277","0.0-3.0-0.301","delayed","trial"
"845","80","-7.69","-10.00","1","loss","1","html-keyboard-response","926","1069976","0.0-3.0-0.302","immediate","trial"
"2264","80","-3.33","-10.00","2","loss","1","html-keyboard-response","929","1074105","0.0-3.0-0.303","immediate","trial"
"1059","81","-9.09","-10.00","1","loss","0","html-keyboard-response","932","1077020","0.0-3.0-0.304","immediate","trial"
"1017","80","2.50","10.00","10","reward","1","html-keyboard-response","935","1079899","0.0-3.0-0.305","immediate","trial"
"878","81","-5.00","-20.00","3","loss","0","html-keyboard-response","938","1082629","0.0-3.0-0.306","immediate","trial"
"1137","81","-1.67","-5.00","2","loss","0","html-keyboard-response","941","1085608","0.0-3.0-0.307","immediate","trial"
"813","80","0.71","5.00","2","reward","1","html-keyboard-response","944","1088264","0.0-3.0-0.308","immediate","trial"
"712","80","3.33","20.00","50","reward","0","html-keyboard-response","947","1090833","0.0-3.0-0.309","delayed","trial"
"832","80","-3.33","-20.00","50","loss","1","html-keyboard-response","950","1093518","0.0-3.0-0.310","immediate","trial"
"1282","81","-0.17","-1.00","10","loss","0","html-keyboard-response","953","1096638","0.0-3.0-0.311","immediate","trial"
"1031","81","-19.05","-20.00","5","loss","0","html-keyboard-response","956","1099523","0.0-3.0-0.312","immediate","trial"
"1060","81","1.25","5.00","10","reward","1","html-keyboard-response","959","1102452","0.0-3.0-0.313","delayed","trial"
"930","81","-19.80","-20.00","1","loss","0","html-keyboard-response","962","1105227","0.0-3.0-0.314","immediate","trial"
"893","80","-16.67","-20.00","2","loss","1","html-keyboard-response","965","1107974","0.0-3.0-0.315","immediate","trial"
"2305","81","0.25","1.00","1","reward","1","html-keyboard-response","968","1112137","0.0-3.0-0.316","delayed","trial"
"1066","81","5.00","10.00","2","reward","1","html-keyboard-response","971","1115047","0.0-3.0-0.317","delayed","trial"
"1037","81","-0.83","-1.00","2","loss","0","html-keyboard-response","974","1117939","0.0-3.0-0.318","immediate","trial"
"898","81","13.33","20.00","1","reward","1","html-keyboard-response","977","1120690","0.0-3.0-0.319","delayed","trial"
"932","81","-0.25","-1.00","10","loss","1","html-keyboard-response","980","1123474","0.0-3.0-0.320","delayed","trial"
"875","80","-15.38","-20.00","3","loss","1","html-keyboard-response","983","1126196","0.0-3.0-0.321","immediate","trial"
"808","81","0.63","10.00","5","reward","1","html-keyboard-response","986","1128859","0.0-3.0-0.322","delayed","trial"
"2193","81","-7.69","-10.00","3","loss","0","html-keyboard-response","989","1132914","0.0-3.0-0.323","immediate","trial"
"3905","81","-4.00","-10.00","5","loss","0","html-keyboard-response","992","1138666","0.0-3.0-0.324","immediate","trial"
"1102","81","-0.20","-10.00","50","loss","0","html-keyboard-response","995","1141622","0.0-3.0-0.325","immediate","trial"
"919","81","-1.67","-10.00","10","loss","0","html-keyboard-response","998","1144400","0.0-3.0-0.326","immediate","trial"
"798","81","2.00","20.00","3","reward","1","html-keyboard-response","1001","1147059","0.0-3.0-0.327","delayed","trial"
"1163","81","-0.50","-1.00","1","loss","0","html-keyboard-response","1004","1150064","0.0-3.0-0.328","immediate","trial"
"1093","80","-0.91","-10.00","20","loss","1","html-keyboard-response","1007","1153003","0.0-3.0-0.329","immediate","trial"
"664","81","-2.50","-5.00","1","loss","0","html-keyboard-response","1010","1155525","0.0-3.0-0.330","immediate","trial"
"938","80","-13.33","-20.00","1","loss","1","html-keyboard-response","1013","1158318","0.0-3.0-0.331","immediate","trial"
"731","81","-19.61","-20.00","2","loss","0","html-keyboard-response","1016","1160899","0.0-3.0-0.332","immediate","trial"
"637","80","-3.85","-5.00","3","loss","1","html-keyboard-response","1019","1163398","0.0-3.0-0.333","immediate","trial"
"1014","80","0.09","1.00","10","reward","1","html-keyboard-response","1022","1166252","0.0-3.0-0.334","immediate","trial"
"918","81","13.33","20.00","50","reward","1","html-keyboard-response","1025","1169020","0.0-3.0-0.335","delayed","trial"
